timeStamp,accX,accY,accZ,gyroX,gyroY,gyroZ,angleX,angleY,height
2834312,7.790234565734863,14.743066787719727,6.43603515625,-94.05517578125,179.3212890625,-42.6025390625,-109.25903,10.316162,57.875633
2834329,7.287793159484863,14.656933784484863,6.991113185882568,-109.80224609375,173.76708984375,-34.24072265625,-111.2146,8.882446,57.904602
2834346,5.986230373382568,13.905664443969727,7.565331935882568,-127.197265625,162.841796875,-20.93505859375,-114.0271,7.102661,57.928204
2834363,0.0,13.226171493530273,7.957715034484863,-139.95361328125,152.03857421875,-9.8876953125,-116.30127,5.927124,57.95181
2834380,0.0,12.618456840515137,8.268750190734863,-151.79443359375,136.53564453125,0.0,-118.70178,4.9053955,58.00438
2834397,0.0,11.690136909484863,8.737695693969727,-170.22705078125,107.36083984375,16.845703125,-122.15149,3.8946533,58.0312
2834414,0.0,10.871874809265137,9.287988662719727,-179.87060546875,79.4677734375,26.4892578125,-124.887085,3.4442139,58.054806
2834431,0.0,9.857421875,10.340723037719727,-191.71142578125,44.189453125,44.189453125,-128.7323,3.383789,58.073044
2834448,0.0,8.97216796875,10.977148056030273,-197.08251953125,36.4990234375,58.04443359375,-131.72607,3.6254883,58.099865
2834465,0.0,8.072558403015137,11.537012100219727,-201.96533203125,50.23193359375,76.2939453125,-134.80225,4.0319824,58.099865
2834482,0.0,6.689648628234863,11.934179306030273,-203.0029296875,67.5048828125,87.890625,-138.99902,4.1967773,58.099865
2834499,0.0,5.636914253234863,12.111230850219727,-203.43017578125,80.13916015625,98.0224609375,-142.19055,4.213257,58.099865
2834516,0.0,0.0,12.264355659484863,-205.078125,81.35986328125,109.55810546875,-146.47522,4.0979004,58.099865
2834533,0.0,0.0,12.484472274780273,-205.078125,74.70703125,119.32373046875,-149.6997,4.0374756,58.12347
2834550,0.0,0.0,12.517969131469727,-206.0546875,59.2041015625,133.85009765625,-152.95166,4.0594482,58.14707
2834567,0.0,0.0,12.886425971984863,-204.9560546875,50.23193359375,145.5078125,-157.28027,4.246216,58.16531
2834584,0.0,0.0,13.2548828125,-202.45361328125,47.9736328125,157.958984375,-160.52124,4.4055176,58.192135
2834601,0.0,0.0,13.570703506469727,-193.78662109375,69.091796875,175.23193359375,-164.76746,4.284668,58.215736
2834618,0.0,0.0,13.652050971984863,-187.80517578125,97.47314453125,184.63134765625,-167.82166,3.647461,58.237194
2834635,0.0,0.0,13.56591796875,-182.18994140625,114.92919921875,191.650390625,-170.74951,2.543335,58.279037
2834652,0.0,0.0,13.384081840515137,-179.01611328125,104.1259765625,204.833984375,-174.47937,0.8514404,58.300495
2834669,-5.139257907867432,-5.679980278015137,13.360156059265137,-177.06298828125,74.462890625,214.90478515625,-177.17102,-0.1977539,58.300495
2834686,-6.177636623382568,-7.08203125,13.010839462280273,-170.59326171875,26.91650390625,231.01806640625,179.599,-0.8074951,58.300495
2834703,-6.3642578125,-7.82373046875,12.623242378234863,-164.97802734375,0.0,237.73193359375,177.46216,-0.7470703,58.300495
2834720,-6.067578315734863,-9.091796875,12.403124809265137,-151.79443359375,-26.06201171875,251.5869140625,175.11108,-0.7305908,58.300495
2834737,-5.16796875,-9.886133193969727,12.25,-144.22607421875,-24.90234375,259.58251953125,172.2107,-0.76904297,58.300495
2834754,0.0,-10.417284965515137,12.154296875,-132.01904296875,-7.9345703125,267.7001953125,170.23315,-1.1645508,58.30586
2834771,-6.402539253234863,-10.436426162719727,12.173437118530273,-123.59619140625,5.4931640625,280.57861328125,167.84912,-2.246704,58.308006
2834788,-8.2783203125,-9.943554878234863,11.7236328125,-123.9013671875,0.0,285.888671875,166.19568,-3.24646,58.31337
2834805,-9.273633003234863,-10.221094131469727,11.254687309265137,-116.69921875,-24.0478515625,293.3349609375,164.62463,-4.3670654,58.31337
2834822,-9.244921684265137,-9.311914443969727,10.833593368530273,-113.34228515625,-25.7568359375,296.38671875,162.81738,-5.251465,58.31659
2834839,-8.92431640625,-8.498437881469727,10.541699409484863,-112.79296875,-8.7890625,299.31640625,161.69678,-6.1743164,58.31659
2834856,-9.225781440734863,-7.3212890625,9.88134765625,-116.0888671875,24.0478515625,301.08642578125,160.10925,-8.371582,58.31659
2834873,-10.292871475219727,-6.38818359375,9.675585746765137,-121.27685546875,42.724609375,299.31640625,158.97766,-10.469971,58.31659
2834890,-12.039453506469727,-5.703906059265137,9.350194931030273,-122.6806640625,35.82763671875,279.6630859375,157.95044,-12.562866,58.31659
2834907,-12.762011528015137,0.0,8.618066787719727,-140.2587890625,22.27783203125,292.66357421875,156.57715,-15.265503,58.31659
2834924,-12.867284774780273,0.0,8.091699600219727,-146.05712890625,15.869140625,291.9921875,155.58838,-16.864014,58.31659
2834941,-12.9677734375,0.0,7.412207126617432,-157.53173828125,24.658203125,291.07666015625,154.16565,-19.13269,58.31659
2834958,-13.202245712280273,0.0,6.335546970367432,-169.12841796875,40.71044921875,279.6630859375,152.97363,-21.23108,58.31659
2834975,-14.365038871765137,0.0,5.110547065734863,-192.138671875,28.50341796875,255.126953125,151.6333,-24.318237,58.31337
2834992,-13.94873046875,0.0,0.0,-204.28466796875,23.25439453125,239.68505859375,149.55688,-26.444092,58.308006
2835009,-15.52783203125,8.464941024780273,0.0,-215.33203125,24.84130859375,207.6416015625,147.74414,-28.504028,58.308006
2835026,-28.01708984375,21.9638671875,0.0,-219.1162109375,-70.1904296875,63.232421875,144.7229,-29.602661,58.300495
2835043,-30.629785537719727,42.808006286621094,17.484960556030273,-252.86865234375,-204.9560546875,-105.95703125,141.54785,-27.130737,58.300495
2835060,-9.264062881469727,53.120018005371094,21.896875381469727,-376.77001953125,-189.27001953125,-437.80517578125,136.14258,-21.895752,58.2844
2835077,16.551855087280273,26.170019149780273,0.0,-398.92578125,-82.1533203125,-814.94140625,126.57898,-10.821533,58.279037
2835094,32.443359375,7.168164253234863,-11.4365234375,-513.73291015625,-75.927734375,-1222.7783203125,118.916016,3.4936523,58.279037
2835111,71.71992492675781,-20.193359375,-24.33251953125,-674.1943359375,15.9912109375,-1660.2783203125,110.14343,31.591187,58.279037
2835128,110.85771179199219,-53.87128829956055,-14.393750190734863,-403.80859375,410.21728515625,-1689.5751953125,114.47754,54.53064,58.279037
2835145,88.5445327758789,-52.545799255371094,0.0,-120.9716796875,987.97607421875,-1610.29052734375,157.11548,63.220825,58.279037
2835162,17.853418350219727,-50.626953125,-17.638086318969727,858.642578125,1209.716796875,-1258.60595703125,-156.00586,37.6886,58.29513
2835179,-20.758007049560547,-12.8720703125,-28.060155868530273,1034.85107421875,490.53955078125,-856.3232421875,-137.36755,20.286255,58.31337
2835196,0.0,18.068750381469727,-19.422948837280273,719.482421875,-73.42529296875,-460.26611328125,-118.95996,10.1953125,58.324097
2835213,13.494140625,28.806640625,-7.565331935882568,504.638671875,-23.25439453125,-251.15966796875,-110.00061,6.2127686,58.34019
2835230,12.546679496765137,35.34794998168945,0.0,209.28955078125,-15.380859375,-6.591796875,-104.7876,4.4439697,58.35843
2835247,8.704198837280273,34.807228088378906,10.125391006469727,49.13330078125,-97.47314453125,131.65283203125,-102.28821,5.9820557,58.36916
2835264,12.80029296875,29.414356231689453,12.116015434265137,-59.5703125,-152.64892578125,219.7265625,-102.5354,9.283447,58.374523
2835281,15.963281631469727,19.997167587280273,9.991406440734863,-119.44580078125,-192.19970703125,291.93115234375,-104.09546,15.342407,58.401344
2835298,17.092578887939453,15.331640243530273,7.713671684265137,-137.63427734375,-225.03662109375,315.73486328125,-105.47974,20.665283,58.401344
2835315,19.461231231689453,11.848047256469727,6.794921875,-131.53076171875,-215.63720703125,326.416015625,-106.710205,28.152466,58.401344
2835332,20.317773818969727,9.278417587280273,6.952832221984863,-118.408203125,-194.2138671875,316.5283203125,-108.078,33.66211,58.401344
2835349,21.131250381469727,7.84765625,7.149023532867432,-103.94287109375,-165.95458984375,293.45703125,-108.93494,38.814697,58.401344
2835366,21.762889862060547,6.321191310882568,6.335546970367432,-85.8154296875,-120.42236328125,246.4599609375,-110.07202,44.71985,58.353065
2835383,22.040430068969727,5.1201171875,5.876172065734863,-71.533203125,-92.7734375,207.09228515625,-110.93994,48.356323,58.300495
2835400,21.671972274780273,0.0,5.1201171875,-57.861328125,-72.08251953125,165.8935546875,-111.73096,51.295166,58.19535
2835417,22.002147674560547,0.0,0.0,-36.07177734375,-20.751953125,111.2060546875,-112.93945,54.04724,58.14707
2835434,20.485254287719727,0.0,5.177538871765137,-21.78955078125,9.521484375,75.8056640625,-114.09851,55.24475,58.0945
2835451,19.580860137939453,0.0,5.62255859375,0.0,35.400390625,31.67724609375,-115.54321,55.909424,58.03871
2835468,18.748241424560547,0.0,5.278027534484863,11.77978515625,56.7626953125,0.0,-116.53198,55.739136,57.98292
2835485,18.202733993530273,0.0,0.0,27.03857421875,83.740234375,-36.80419921875,-117.454834,55.00305,57.93035
2835502,17.738574981689453,0.0,0.0,41.1376953125,91.85791015625,-61.58447265625,-118.289795,53.294678,57.93035
2835519,17.614160537719727,0.0,0.0,55.6640625,97.2900390625,-82.6416015625,-118.465576,51.608276,57.93035
2835536,16.599706649780273,0.0,5.392870903015137,72.021484375,101.806640625,-102.47802734375,-118.097534,48.861694,57.93035
2835553,15.00146484375,0.0,5.608202934265137,83.3740234375,94.8486328125,-110.107421875,-117.421875,46.63147,57.93035
2835570,13.685546875,0.0,5.857031345367432,92.46826171875,72.44873046875,-110.77880859375,-116.45508,44.56604,57.93035
2835587,14.183202743530273,5.211035251617432,6.220703125,92.22412109375,70.9228515625,-107.421875,-114.9115,41.97876,57.924984
2835604,13.80517578125,6.110644340515137,6.134570121765137,89.41650390625,70.25146484375,-101.50146484375,-113.84033,40.116577,57.91962
2835621,13.073046684265137,6.9384765625,6.14892578125,79.52880859375,53.89404296875,-88.92822265625,-112.48352,37.91382,57.917477
2835638,12.919921875,7.503125190734863,5.995800971984863,69.88525390625,40.83251953125,-77.7587890625,-111.51123,36.524048,57.91211
2835655,13.125683784484863,8.005566596984863,5.976660251617432,57.92236328125,32.16552734375,-64.75830078125,-110.65979,35.370483,57.904602
